Folder: SpondLab/KHU_project/Photoelectron_Spectroscopy/XPS_Analysis/DNN

File: GaN.txt
286.69	1200	110730	5.684839
291.69	1195	113910	5.705786
296.69	1190	115140	5.726734
301.69	1185	116780	5.747682
306.69	1180	117080	5.768630
311.69	1175	116650	5.789577
316.69	1170	121940	5.810525
321.69	1165	128850	5.831473
326.69	1160	123820	5.852421
331.69	1155	114200	5.880232
336.69	1150	109190	5.911137
341.69	1145	276030	5.942041
346.69	1140	119150	5.972946
351.69	1135	113530	6.003850
356.69	1130	92850	6.034755
361.69	1125	79450	6.065659
366.69	1120	165370	6.096563
371.69	1115	85900	6.127468
376.69	1110	65060	6.158372
381.69	1105	66090	6.189277
386.69	1100	63540	6.220181
391.69	1095	60190	6.251086
396.69	1090	60700	6.281990
401.69	1085	61320	6.312895
406.69	1080	62420	6.343799
411.69	1075	62040	6.374703
416.69	1070	62890	6.405608
421.69	1065	64840	6.436512
426.69	1060	66120	6.467417
431.69	1055	65130	6.498321
436.69	1050	65270	6.529226
441.69	1045	67780	6.560130
446.69	1040	68900	6.591035
451.69	1035	70980	6.621939
456.69	1030	68830	6.652792
461.69	1025	71810	6.683308
466.69	1020	72450	6.713823
471.69	1015	74800	6.744339
476.69	1010	75500	6.774854
481.69	1005	75550	6.805370
486.69	1000	80500	6.835885
491.69	995	79990	6.866401
496.69	990	77670	6.896916
501.69	985	76730	6.927432
506.69	980	87330	6.957947
511.69	975	91160	6.988463
516.69	970	79180	7.018978
521.69	965	72780	7.049494
526.69	960	73450	7.080009
531.69	955	73500	7.110525
536.69	950	73540	7.141040
541.69	945	74320	7.171556
546.69	940	76390	7.202071
551.69	935	76810	7.232587
556.69	930	77460	7.263102
561.69	925	76820	7.293618
566.69	920	78420	7.324133
571.69	915	78270	7.354649
576.69	910	79650	7.385164
581.69	905	80650	7.415680
586.69	900	82140	7.446195
591.69	895	82340	7.476711
596.69	890	82640	7.507226
601.69	885	85260	7.537742
606.69	880	84670	7.568257
611.69	875	86170	7.598773
616.69	870	86320	7.629288
621.69	865	87340	7.659804
626.69	860	89720	7.690319
631.69	855	89830	7.720835
636.69	850	89850	7.751350
641.69	845	91110	7.781866
646.69	840	90850	7.812381
651.69	835	92070	7.842897
656.69	830	93010	7.873412
661.69	825	93360	7.903928
666.69	820	96340	7.931169
671.69	815	96410	7.952358
676.69	810	96120	7.973548
681.69	805	97460	7.994738
686.69	800	98870	8.015927
691.69	795	101650	8.037117
696.69	790	100070	8.058307
701.69	785	104210	8.079496
706.69	780	103850	8.100686
711.69	775	103920	8.121875
716.69	770	106270	8.143065
721.69	765	108260	8.164255
726.69	760	108950	8.185444
731.69	755	111570	8.206634
736.69	750	110570	8.227823
741.69	745	114100	8.249013
746.69	740	113270	8.270203
751.69	735	114640	8.291392
756.69	730	115940	8.312582
761.69	725	116880	8.333772
766.69	720	121390	8.354961
771.69	715	122220	8.376151
776.69	710	124210	8.397340
781.69	705	126190	8.418530
786.69	700	125710	8.439720
791.69	695	128040	8.460909
796.69	690	130350	8.482099
801.69	685	133030	8.503289
806.69	680	135500	8.524478
811.69	675	136050	8.545668
816.69	670	138760	8.566857
821.69	665	139410	8.588047
826.69	660	147310	8.609237
831.69	655	143400	8.630426
836.69	650	146100	8.651616
841.69	645	154030	8.672806
846.69	640	148160	8.693995
851.69	635	151580	8.715185
856.69	630	152800	8.736374
861.69	625	154260	8.757564
866.69	620	158930	8.778754
871.69	615	161200	8.799943
876.69	610	161910	8.821133
881.69	605	168330	8.842323
886.69	600	174850	8.863512
891.69	595	176600	8.875974
896.69	590	163860	8.888291
901.69	585	146490	8.900609
906.69	580	149010	8.912927
911.69	575	152800	8.925245
916.69	570	149170	8.937563
921.69	565	150920	8.949880
926.69	560	145040	8.962198
931.69	555	145500	8.974516
936.69	550	143410	8.986834
941.69	545	142490	8.999152
946.69	540	145290	9.011470
951.69	535	150850	9.023787
956.69	530	184630	9.036105
961.69	525	143520	9.048423
966.69	520	169390	9.060741
971.69	515	157610	9.073059
976.69	510	156710	9.085376
981.69	505	138310	9.097694
986.69	500	116030	9.110012
991.69	495	116910	9.122330
996.69	490	137700	9.134648
1001.69	485	116800	9.146965
1006.69	480	110290	9.159283
1011.69	475	101150	9.171601
1016.69	470	102090	9.183919
1021.69	465	104830	9.196237
1026.69	460	109520	9.208554
1031.69	455	111820	9.220872
1036.69	450	115390	9.234726
1041.69	445	122770	9.251576
1046.69	440	124620	9.268426
1051.69	435	115010	9.285276
1056.69	430	119630	9.302126
1061.69	425	194060	9.318977
1066.69	420	172970	9.335827
1071.69	415	77440	9.352677
1076.69	410	57810	9.369527
1081.69	405	52020	9.386377
1086.69	400	68840	9.403227
1091.69	395	118770	9.420077
1096.69	390	33050	9.436927
1101.69	385	23270	9.453777
1106.69	380	22370	9.470627
1111.69	375	22290	9.487477
1116.69	370	22690	9.504327
1121.69	365	19940	9.521177
1126.69	360	19690	9.538027
1131.69	355	19750	9.554877
1136.69	350	20140	9.571727
1141.69	345	19920	9.588577
1146.69	340	20170	9.605427
1151.69	335	20660	9.622277
1156.69	330	21180	9.639127
1161.69	325	20860	9.655977
1166.69	320	21150	9.672827
1171.69	315	21270	9.689677
1176.69	310	21650	9.706527
1181.69	305	21950	9.723377
1186.69	300	22060	9.740227
1191.69	295	22510	9.757077
1196.69	290	23850	9.773927
1201.69	285	36020	9.790777
1206.69	280	22450	9.807627
1211.69	275	22200	9.824477
1216.69	270	22650	9.841327
1221.69	265	18250	9.858177
1226.69	260	11700	9.875027
1231.69	255	4310	9.891877
1236.69	250	4770	9.909562
1241.69	245	11350	9.931974
1246.69	240	20640	9.954386
1251.69	235	26250	9.976798
1256.69	230	25670	9.999210
1261.69	225	25100	10.0216
1266.69	220	26870	10.044
1271.69	215	26560	10.0664
1276.69	210	26540	10.0889
1281.69	205	27330	10.1113
1286.69	200	30300	10.1337
1291.69	195	28620	10.1561
1296.69	190	29500	10.1785
1301.69	185	30770	10.2009
1306.69	180	33040	10.2233
1311.69	175	30610	10.2457
1316.69	170	29860	10.2682
1321.69	165	31530	10.2906
1326.69	160	57310	10.313
1331.69	155	30260	10.3359
1336.69	150	29090	10.3596
1341.69	145	29860	10.3833
1346.69	140	30200	10.4069
1351.69	135	30230	10.4306
1356.69	130	33270	10.4542
1361.69	125	33030	10.4779
1366.69	120	41630	10.5015
1371.69	115	22410	10.5252
1376.69	110	59490	10.5488
1381.69	105	84080	10.5725
1386.69	100	15310	10.5961
1391.69	95	11220	10.6198
1396.69	90	9660	10.6434
1401.69	85	8040	10.6671
1406.69	80	8330	10.6907
1411.69	75	23580	10.7144
1416.69	70	8310	10.738
1421.69	65	8130	10.7617
1426.69	60	6060	10.7853
1431.69	55	3350	10.809
1436.69	50	330	10.8326
1441.69	45	3360	10.8563
1446.69	40	8020	10.88
1451.69	35	8910	10.9036
1456.69	30	6500	10.9273
1461.69	25	7870	10.9509
1466.69	20	69970	10.9559
1471.69	15	2300	10.9559
1476.69	10	3910	10.9559
1481.69	5.000000	3880	10.9559
1486.69	0.000000	120	10.9559
1491.69	-5.000000	10	10.9559