Folder: SpondLab/KHU_project/GaN_sample29&30_XPS wide

File: sample29_wide4.txt
Dataset wide:45(20210119)
Dwell Time (s)	0.100000
Number of sweeps	1
Kinetic Energy(eV)	Binding Energy(eV)	Intensity(cps)	Transmission Value
286.69	1200	50140	5.684839
291.69	1195	49800	5.705786
296.69	1190	51770	5.726734
301.69	1185	54140	5.747682
306.69	1180	53470	5.768630
311.69	1175	55380	5.789577
316.69	1170	55910	5.810525
321.69	1165	57390	5.831473
326.69	1160	54730	5.852421
331.69	1155	53640	5.880232
336.69	1150	67040	5.911137
341.69	1145	73560	5.942041
346.69	1140	57560	5.972946
351.69	1135	52100	6.003850
356.69	1130	46790	6.034755
361.69	1125	48250	6.065659
366.69	1120	130070	6.096563
371.69	1115	41840	6.127468
376.69	1110	42160	6.158372
381.69	1105	41010	6.189277
386.69	1100	38330	6.220181
391.69	1095	37450	6.251086
396.69	1090	38280	6.281990
401.69	1085	38360	6.312895
406.69	1080	39300	6.343799
411.69	1075	39820	6.374703
416.69	1070	39440	6.405608
421.69	1065	40220	6.436512
426.69	1060	41760	6.467417
431.69	1055	43150	6.498321
436.69	1050	43620	6.529226
441.69	1045	43870	6.560130
446.69	1040	44200	6.591035
451.69	1035	45950	6.621939
456.69	1030	47420	6.652792
461.69	1025	47800	6.683308
466.69	1020	49320	6.713823
471.69	1015	50770	6.744339
476.69	1010	49280	6.774854
481.69	1005	54150	6.805370
486.69	1000	55560	6.835885
491.69	995	51600	6.866401
496.69	990	47990	6.896916
501.69	985	58420	6.927432
506.69	980	69230	6.957947
511.69	975	51740	6.988463
516.69	970	42580	7.018978
521.69	965	37250	7.049494
526.69	960	38570	7.080009
531.69	955	39110	7.110525
536.69	950	38420	7.141040
541.69	945	39590	7.171556
546.69	940	41090	7.202071
551.69	935	41200	7.232587
556.69	930	40700	7.263102
561.69	925	41140	7.293618
566.69	920	41660	7.324133
571.69	915	42070	7.354649
576.69	910	42660	7.385164
581.69	905	42680	7.415680
586.69	900	43920	7.446195
591.69	895	44140	7.476711
596.69	890	44580	7.507226
601.69	885	44740	7.537742
606.69	880	45690	7.568257
611.69	875	45990	7.598773
616.69	870	48310	7.629288
621.69	865	48370	7.659804
626.69	860	49420	7.690319
631.69	855	48950	7.720835
636.69	850	49130	7.751350
641.69	845	48670	7.781866
646.69	840	50560	7.812381
651.69	835	51350	7.842897
656.69	830	51340	7.873412
661.69	825	51970	7.903928
666.69	820	51930	7.931169
671.69	815	53790	7.952358
676.69	810	54460	7.973548
681.69	805	54630	7.994738
686.69	800	54010	8.015927
691.69	795	54500	8.037117
696.69	790	56620	8.058307
701.69	785	57550	8.079496
706.69	780	57620	8.100686
711.69	775	58000	8.121875
716.69	770	58010	8.143065
721.69	765	58080	8.164255
726.69	760	59860	8.185444
731.69	755	59680	8.206634
736.69	750	61300	8.227823
741.69	745	62280	8.249013
746.69	740	62200	8.270203
751.69	735	63140	8.291392
756.69	730	64120	8.312582
761.69	725	64370	8.333772
766.69	720	67120	8.354961
771.69	715	66650	8.376151
776.69	710	66920	8.397340
781.69	705	67850	8.418530
786.69	700	69360	8.439720
791.69	695	69550	8.460909
796.69	690	70990	8.482099
801.69	685	71660	8.503289
806.69	680	74210	8.524478
811.69	675	73940	8.545668
816.69	670	75870	8.566857
821.69	665	76350	8.588047
826.69	660	75860	8.609237
831.69	655	78220	8.630426
836.69	650	81440	8.651616
841.69	645	80740	8.672806
846.69	640	80900	8.693995
851.69	635	81170	8.715185
856.69	630	82060	8.736374
861.69	625	83410	8.757564
866.69	620	86130	8.778754
871.69	615	85920	8.799943
876.69	610	87310	8.821133
881.69	605	93590	8.842323
886.69	600	91770	8.863512
891.69	595	90660	8.875974
896.69	590	82540	8.888291
901.69	585	81890	8.900609
906.69	580	84420	8.912927
911.69	575	80600	8.925245
916.69	570	81880	8.937563
921.69	565	81390	8.949880
926.69	560	86220	8.962198
931.69	555	79990	8.974516
936.69	550	73300	8.986834
941.69	545	68540	8.999152
946.69	540	69370	9.011470
951.69	535	220800	9.023787
956.69	530	66600	9.036105
961.69	525	72060	9.048423
966.69	520	78550	9.060741
971.69	515	68630	9.073059
976.69	510	69080	9.085376
981.69	505	55320	9.097694
986.69	500	52220	9.110012
991.69	495	63500	9.122330
996.69	490	54060	9.134648
1001.69	485	52430	9.146965
1006.69	480	46520	9.159283
1011.69	475	46450	9.171601
1016.69	470	47490	9.183919
1021.69	465	50070	9.196237
1026.69	460	51130	9.208554
1031.69	455	53640	9.220872
1036.69	450	56740	9.234726
1041.69	445	59140	9.251576
1046.69	440	55010	9.268426
1051.69	435	57580	9.285276
1056.69	430	72100	9.302126
1061.69	425	99790	9.318977
1066.69	420	45060	9.335827
1071.69	415	32690	9.352677
1076.69	410	29560	9.369527
1081.69	405	30890	9.386377
1086.69	400	82270	9.403227
1091.69	395	24420	9.420077
1096.69	390	15550	9.436927
1101.69	385	14990	9.453777
1106.69	380	14510	9.470627
1111.69	375	14580	9.487477
1116.69	370	14230	9.504327
1121.69	365	14310	9.521177
1126.69	360	14220	9.538027
1131.69	355	14420	9.554877
1136.69	350	14540	9.571727
1141.69	345	13790	9.588577
1146.69	340	14740	9.605427
1151.69	335	14210	9.622277
1156.69	330	14870	9.639127
1161.69	325	14550	9.655977
1166.69	320	14420	9.672827
1171.69	315	14130	9.689677
1176.69	310	15130	9.706527
1181.69	305	14890	9.723377
1186.69	300	14200	9.740227
1191.69	295	15450	9.757077
1196.69	290	21000	9.773927
1201.69	285	15400	9.790777
1206.69	280	14770	9.807627
1211.69	275	15260	9.824477
1216.69	270	15190	9.841327
1221.69	265	15040	9.858177
1226.69	260	15180	9.875027
1231.69	255	16230	9.891877
1236.69	250	16390	9.909562
1241.69	245	16470	9.931974
1246.69	240	16550	9.954386
1251.69	235	16820	9.976798
1256.69	230	16380	9.999210
1261.69	225	16810	10.0216
1266.69	220	16580	10.044
1271.69	215	16640	10.0664
1276.69	210	17420	10.0889
1281.69	205	18700	10.1113
1286.69	200	18160	10.1337
1291.69	195	17720	10.1561
1296.69	190	18190	10.1785
1301.69	185	19190	10.2009
1306.69	180	19230	10.2233
1311.69	175	18750	10.2457
1316.69	170	20160	10.2682
1321.69	165	33730	10.2906
1326.69	160	19760	10.313
1331.69	155	19410	10.3359
1336.69	150	20080	10.3596
1341.69	145	20150	10.3833
1346.69	140	18950	10.4069
1351.69	135	18940	10.4306
1356.69	130	18670	10.4542
1361.69	125	38800	10.4779
1366.69	120	16060	10.5015
1371.69	115	24520	10.5252
1376.69	110	41350	10.5488
1381.69	105	14370	10.5725
1386.69	100	9340	10.5961
1391.69	95	7200	10.6198
1396.69	90	5740	10.6434
1401.69	85	5000	10.6671
1406.69	80	27350	10.6907
1411.69	75	5030	10.7144
1416.69	70	4440	10.738
1421.69	65	4540	10.7617
1426.69	60	4810	10.7853
1431.69	55	5490	10.809
1436.69	50	5810	10.8326
1441.69	45	6310	10.8563
1446.69	40	4580	10.88
1451.69	35	3470	10.9036
1456.69	30	6250	10.9273
1461.69	25	30190	10.9509
1466.69	20	1640	10.9559
1471.69	15	2980	10.9559
1476.69	10	3070	10.9559
1481.69	5.000000	80	10.9559
1486.69	0.000000	20	10.9559
1491.69	-5.000000	10	10.9559