Folder: SpondLab/KHU_project/ITOwide

File: wide_pe40
Dataset wide_40:4(ito)
Dwell Time (s)	0.100000
Number of sweeps	20
Kinetic Energy(eV)	Binding Energy(eV)	Intensity(cps)	Transmission Value
286.69	1200	3069	1.640891
291.19	1195.5	3289	1.635590
295.69	1191	3397	1.630288
300.19	1186.5	3322.5	1.624987
304.69	1182	3253.5	1.619685
309.19	1177.5	3222.5	1.614384
313.69	1173	3385.5	1.609082
318.19	1168.5	3426	1.603781
322.69	1164	3543.5	1.598479
327.19	1159.5	3578.5	1.593178
331.69	1155	3617	1.591559
336.19	1150.5	3657.5	1.591065
340.69	1146	3662.5	1.590572
345.19	1141.5	3547	1.590078
349.69	1137	3483	1.589585
354.19	1132.5	3315	1.589091
358.69	1128	3385	1.588598
363.19	1123.5	3455.5	1.588104
367.69	1119	3462	1.587610
372.19	1114.5	3533.5	1.587117
376.69	1110	3705	1.586623
381.19	1105.5	3768.5	1.586130
385.69	1101	3822	1.585636
390.19	1096.5	3814.5	1.585142
394.69	1092	4154	1.584649
399.19	1087.5	5625	1.584155
403.69	1083	4793.5	1.583662
408.19	1078.5	4676.5	1.583168
412.69	1074	3275.5	1.582675
417.19	1069.5	3217	1.582181
421.69	1065	3272	1.581687
426.19	1060.5	3496.5	1.581194
430.69	1056	3228	1.580700
435.19	1051.5	3238	1.580207
439.69	1047	3152	1.579713
444.19	1042.5	3198.5	1.579219
448.69	1038	3249	1.578726
453.19	1033.5	3402	1.578232
457.69	1029	3378	1.577790
462.19	1024.5	3559.5	1.577437
466.69	1020	3541	1.577083
471.19	1015.5	3665.5	1.576730
475.69	1011	3715	1.576376
480.19	1006.5	3769	1.576023
484.69	1002	3868	1.575669
489.19	997.5	4051.5	1.575316
493.69	993	4100.5	1.574962
498.19	988.5	3990	1.574609
502.69	984	4040	1.574255
507.19	979.5	4185	1.573902
511.69	975	5245.5	1.573548
516.19	970.5	4254.5	1.573195
520.69	966	3960	1.572841
525.19	961.5	3801	1.572488
529.69	957	3874.5	1.572134
534.19	952.5	3993	1.571781
538.69	948	4011	1.571427
543.19	943.5	4059	1.571074
547.69	939	4027	1.570720
552.19	934.5	4211	1.570366
556.69	930	4233	1.570013
561.19	925.5	4342.5	1.569659
565.69	921	4304.5	1.569306
570.19	916.5	4426	1.568952
574.69	912	4514	1.568599
579.19	907.5	4504	1.568245
583.69	903	4590.5	1.567892
588.19	898.5	4681.5	1.567538
592.69	894	4786.5	1.567185
597.19	889.5	4838.5	1.566831
601.69	885	4774.5	1.566478
606.19	880.5	4809	1.566124
610.69	876	4908	1.565771
615.19	871.5	5064	1.565417
619.69	867	5021	1.565064
624.19	862.5	5079	1.564710
628.69	858	5142	1.564357
633.19	853.5	5345	1.564003
637.69	849	5448	1.563650
642.19	844.5	5435.5	1.563296
646.69	840	5550	1.562943
651.19	835.5	5636.5	1.562589
655.69	831	5956	1.562236
660.19	826.5	6062	1.561882
664.69	822	5800.5	1.561529
669.19	817.5	5697	1.561954
673.69	813	5520.5	1.562425
678.19	808.5	5559	1.562896
682.69	804	5664.5	1.563366
687.19	799.5	5636.5	1.563837
691.69	795	5823.5	1.564308
696.19	790.5	5748	1.564778
700.69	786	5786	1.565249
705.19	781.5	5868	1.565720
709.69	777	6015.5	1.566190
714.19	772.5	5982	1.566661
718.69	768	6006	1.567132
723.19	763.5	6247.5	1.567602
727.69	759	6529	1.568073
732.19	754.5	6204	1.568544
736.69	750	6310.5	1.569014
741.19	745.5	6251	1.569485
745.69	741	6391	1.569956
750.19	736.5	6461.5	1.570426
754.69	732	6548.5	1.570897
759.19	727.5	6639.5	1.571368
763.69	723	6732	1.571838
768.19	718.5	7120	1.572309
772.69	714	6852	1.572780
777.19	709.5	6646.5	1.573251
781.69	705	9666.5	1.573721
786.19	700.5	6929.5	1.574192
790.69	696	6364.5	1.574663
795.19	691.5	6350.5	1.575133
799.69	687	6479.5	1.575604
804.19	682.5	6541.5	1.576075
808.69	678	6327	1.576545
813.19	673.5	6220	1.577016
817.69	669	8335	1.577487
822.19	664.5	10014	1.577957
826.69	660	5609	1.578428
831.19	655.5	5376	1.578899
835.69	651	5198	1.579369
840.19	646.5	5264	1.579840
844.69	642	5309	1.580311
849.19	637.5	5218.5	1.580781
853.69	633	5362	1.581252
858.19	628.5	5319	1.581723
862.69	624	5364	1.582193
867.19	619.5	5448.5	1.582664
871.69	615	5343.5	1.583135
876.19	610.5	5454	1.583605
880.69	606	5513.5	1.584076
885.19	601.5	5567	1.584547
889.69	597	5648.5	1.584443
894.19	592.5	5718.5	1.584029
898.69	588	5631.5	1.583615
903.19	583.5	5735	1.583201
907.69	579	5726	1.582786
912.19	574.5	5830	1.582372
916.69	570	5916	1.581958
921.19	565.5	5905.5	1.581544
925.69	561	5922	1.581130
930.19	556.5	6094.5	1.580715
934.69	552	6143.5	1.580301
939.19	547.5	6290.5	1.579887
943.69	543	5750.5	1.579473
948.19	538.5	5638	1.579059
952.69	534	5979.5	1.578645
957.19	529.5	8430	1.578230
961.69	525	5246.5	1.577816
966.19	520.5	5266.5	1.577402
970.69	516	5392.5	1.576988
975.19	511.5	5529.5	1.576574
979.69	507	5552	1.576159
984.19	502.5	5428.5	1.575745
988.69	498	5524.5	1.575331
993.19	493.5	5359	1.574917
997.69	489	5782.5	1.574503
1002.19	484.5	5185	1.574088
1006.69	480	5215	1.573674
1011.19	475.5	5219.5	1.573260
1015.69	471	5665.5	1.572846
1020.19	466.5	5516.5	1.572432
1024.69	462	5131.5	1.572017
1029.19	457.5	4394	1.571603
1033.69	453	23337.5	1.571189
1038.19	448.5	3355	1.570879
1042.69	444	18368.5	1.570613
1047.19	439.5	1017	1.570346
1051.69	435	823.5	1.570079
1056.19	430.5	809.5	1.569812
1060.69	426	792	1.569545
1065.19	421.5	808	1.569279
1069.69	417	794	1.569012
1074.19	412.5	827	1.568745
1078.69	408	803	1.568478
1083.19	403.5	819.5	1.568211
1087.69	399	808.5	1.567945
1092.19	394.5	821	1.567678
1096.69	390	813.5	1.567411
1101.19	385.5	805.5	1.567144
1105.69	381	826	1.566877
1110.19	376.5	839.5	1.566611
1114.69	372	841.5	1.566344
1119.19	367.5	824.5	1.566077
1123.69	363	802	1.565810
1128.19	358.5	838.5	1.565543
1132.69	354	811	1.565277
1137.19	349.5	853	1.565010
1141.69	345	853.5	1.564743
1146.19	340.5	858	1.564476
1150.69	336	897	1.564209
1155.19	331.5	878.5	1.563943
1159.69	327	906.5	1.563676
1164.19	322.5	871.5	1.563409
1168.69	318	875.5	1.563142
1173.19	313.5	848.5	1.562875
1177.69	309	884	1.562608
1182.19	304.5	909.5	1.562342
1186.69	300	860.5	1.562075
1191.19	295.5	900.5	1.561808
1195.69	291	929	1.561541
1200.19	286.5	1150	1.561274
1204.69	282	880.5	1.561008
1209.19	277.5	872.5	1.560741
1213.69	273	896.5	1.560474
1218.19	268.5	942.5	1.560207
1222.69	264	882	1.559940
1227.19	259.5	929.5	1.559674
1231.69	255	920	1.559407
1236.19	250.5	881.5	1.559128
1240.69	246	928	1.558654
1245.19	241.5	924	1.558179
1249.69	237	936	1.557704
1254.19	232.5	911	1.557229
1258.69	228	913.5	1.556754
1263.19	223.5	924	1.556279
1267.69	219	910	1.555805
1272.19	214.5	979.5	1.555330
1276.69	210	962.5	1.554855
1281.19	205.5	962.5	1.554380
1285.69	201	1038.5	1.553905
1290.19	196.5	986.5	1.553430
1294.69	192	989.5	1.552955
1299.19	187.5	1005	1.552481
1303.69	183	1009.5	1.552006
1308.19	178.5	1008	1.551531
1312.69	174	1002.5	1.551056
1317.19	169.5	1050.5	1.550581
1321.69	165	1035.5	1.550106
1326.19	160.5	1002	1.549632
1330.69	156	1069.5	1.547996
1335.19	151.5	1081	1.543309
1339.69	147	1083	1.538622
1344.19	142.5	1070	1.533935
1348.69	138	1143	1.529248
1353.19	133.5	1096.5	1.524561
1357.69	129	1154	1.519874
1362.19	124.5	1406.5	1.515187
1366.69	120	1144	1.510499
1371.19	115.5	1029	1.505812
1375.69	111	1014.5	1.501125
1380.19	106.5	1068	1.496438
1384.69	102	1099.5	1.491751
1389.19	97.5	1153.5	1.487064
1393.69	93	1191.5	1.482377
1398.19	88.5	1305.5	1.477690
1402.69	84	1363	1.473003
1407.19	79.5	1475.5	1.468316
1411.69	75	1101	1.463629
1416.19	70.5	790.5	1.458942
1420.69	66	619	1.454255
1425.19	61.5	593.5	1.449568
1429.69	57	538	1.444881
1434.19	52.5	594	1.440193
1438.69	48	623.5	1.435506
1443.19	43.5	664	1.430819
1447.69	39	701	1.426132
1452.19	34.5	660	1.421445
1456.69	30	592.5	1.416758
1461.19	25.5	864	1.412071
1465.69	21	946.5	1.410446
1470.19	16.5	1086	1.410446
1474.69	12	73	1.410446
1479.19	7.500000	235.5	1.410446
1483.69	3.000000	83	1.410446
1488.19	-1.500000	3.000000	1.410446
1491.69	-5.000000	2.500000	1.410446

File: wide_pe80
Dataset wide_80:3(ito)
Dwell Time (s)	0.100000
Number of sweeps	10
Kinetic Energy(eV)	Binding Energy(eV)	Intensity(cps)	Transmission Value
286.69	1200	8554	3.522864
291.19	1195.5	8841	3.526372
295.69	1191	8754	3.529880
300.19	1186.5	8637	3.533388
304.69	1182	8663	3.536896
309.19	1177.5	8625	3.540404
313.69	1173	8728	3.543912
318.19	1168.5	8726	3.547420
322.69	1164	8983	3.550928
327.19	1159.5	9168	3.554436
331.69	1155	9311	3.560853
336.19	1150.5	9303	3.568160
340.69	1146	9127	3.575466
345.19	1141.5	8839	3.582773
349.69	1137	8402	3.590079
354.19	1132.5	8159	3.597385
358.69	1128	7978	3.604692
363.19	1123.5	8085	3.611998
367.69	1119	8195	3.619304
372.19	1114.5	8200	3.626611
376.69	1110	8435	3.633917
381.19	1105.5	8613	3.641223
385.69	1101	8566	3.648530
390.19	1096.5	8435	3.655836
394.69	1092	9067	3.663143
399.19	1087.5	12332	3.670449
403.69	1083	10207	3.677755
408.19	1078.5	9636	3.685062
412.69	1074	6886	3.692368
417.19	1069.5	6782	3.699674
421.69	1065	6860	3.706981
426.19	1060.5	7177	3.714287
430.69	1056	6702	3.721594
435.19	1051.5	6600	3.728900
439.69	1047	6402	3.736206
444.19	1042.5	6383	3.743513
448.69	1038	6450	3.750819
453.19	1033.5	6506	3.758125
457.69	1029	6688	3.764997
462.19	1024.5	6622	3.771125
466.69	1020	6827	3.777252
471.19	1015.5	6852	3.783380
475.69	1011	7058	3.789507
480.19	1006.5	7001	3.795635
484.69	1002	7147	3.801763
489.19	997.5	7461	3.807890
493.69	993	7578	3.814018
498.19	988.5	7310	3.820146
502.69	984	7321	3.826273
507.19	979.5	7672	3.832401
511.69	975	9299	3.838528
516.19	970.5	7521	3.844656
520.69	966	6847	3.850784
525.19	961.5	6730	3.856911
529.69	957	6759	3.863039
534.19	952.5	6853	3.869167
538.69	948	6864	3.875294
543.19	943.5	6974	3.881422
547.69	939	7016	3.887549
552.19	934.5	7252	3.893677
556.69	930	7191	3.899805
561.19	925.5	7116	3.905932
565.69	921	7340	3.912060
570.19	916.5	7333	3.918188
574.69	912	7451	3.924315
579.19	907.5	7512	3.930443
583.69	903	7622	3.936571
588.19	898.5	7732	3.942698
592.69	894	7821	3.948826
597.19	889.5	8006	3.954953
601.69	885	8044	3.961081
606.19	880.5	8088	3.967209
610.69	876	8197	3.973336
615.19	871.5	8151	3.979464
619.69	867	8294	3.985592
624.19	862.5	8408	3.991719
628.69	858	8454	3.997847
633.19	853.5	8782	4.003974
637.69	849	8774	4.010102
642.19	844.5	8957	4.016230
646.69	840	8890	4.022357
651.19	835.5	9132	4.028485
655.69	831	9688	4.034613
660.19	826.5	9902	4.040740
664.69	822	9529	4.046868
669.19	817.5	9323	4.049818
673.69	813	9225	4.052585
678.19	808.5	9357	4.055352
682.69	804	9264	4.058119
687.19	799.5	9275	4.060886
691.69	795	9318	4.063653
696.19	790.5	9541	4.066420
700.69	786	9629	4.069187
705.19	781.5	9914	4.071954
709.69	777	9849	4.074721
714.19	772.5	9993	4.077488
718.69	768	10108	4.080255
723.19	763.5	10409	4.083022
727.69	759	11025	4.085789
732.19	754.5	10678	4.088556
736.69	750	10534	4.091323
741.19	745.5	10860	4.094090
745.69	741	10941	4.096857
750.19	736.5	11115	4.099624
754.69	732	11413	4.102391
759.19	727.5	11444	4.105158
763.69	723	11631	4.107925
768.19	718.5	12347	4.110692
772.69	714	11898	4.113460
777.19	709.5	11898	4.116227
781.69	705	16926	4.118994
786.19	700.5	11967	4.121761
790.69	696	11251	4.124528
795.19	691.5	11360	4.127295
799.69	687	11382	4.130062
804.19	682.5	11534	4.132829
808.69	678	11287	4.135596
813.19	673.5	11224	4.138363
817.69	669	15234	4.141130
822.19	664.5	17167	4.143897
826.69	660	10261	4.146664
831.19	655.5	9757	4.149431
835.69	651	9630	4.152198
840.19	646.5	9665	4.154965
844.69	642	9742	4.157732
849.19	637.5	9600	4.160499
853.69	633	9597	4.163266
858.19	628.5	9909	4.166033
862.69	624	9994	4.168800
867.19	619.5	10044	4.171567
871.69	615	10220	4.174334
876.19	610.5	10427	4.177102
880.69	606	10299	4.179869
885.19	601.5	10538	4.182636
889.69	597	10706	4.183736
894.19	592.5	10733	4.183933
898.69	588	11165	4.184131
903.19	583.5	11130	4.184329
907.69	579	11181	4.184526
912.19	574.5	11380	4.184724
916.69	570	11645	4.184921
921.19	565.5	11605	4.185119
925.69	561	11800	4.185316
930.19	556.5	12040	4.185514
934.69	552	12309	4.185712
939.19	547.5	12579	4.185909
943.69	543	11660	4.186107
948.19	538.5	11411	4.186304
952.69	534	12415	4.186502
957.19	529.5	16141	4.186699
961.69	525	10925	4.186897
966.19	520.5	11131	4.187094
970.69	516	11309	4.187292
975.19	511.5	11415	4.187490
979.69	507	11754	4.187687
984.19	502.5	11661	4.187885
988.69	498	11940	4.188082
993.19	493.5	11456	4.188280
997.69	489	12845	4.188477
1002.19	484.5	11265	4.188675
1006.69	480	11308	4.188873
1011.19	475.5	11572	4.189070
1015.69	471	12697	4.189268
1020.19	466.5	12045	4.189465
1024.69	462	11628	4.189663
1029.19	457.5	9823	4.189860
1033.69	453	57162	4.190058
1038.19	448.5	6888	4.191111
1042.69	444	31591	4.192514
1047.19	439.5	2285	4.193917
1051.69	435	1968	4.195320
1056.19	430.5	1878	4.196723
1060.69	426	1946	4.198126
1065.19	421.5	1887	4.199529
1069.69	417	1901	4.200932
1074.19	412.5	1971	4.202335
1078.69	408	1918	4.203738
1083.19	403.5	1916	4.205141
1087.69	399	1984	4.206544
1092.19	394.5	1906	4.207947
1096.69	390	1999	4.209350
1101.19	385.5	1997	4.210753
1105.69	381	2076	4.212156
1110.19	376.5	2036	4.213559
1114.69	372	2015	4.214962
1119.19	367.5	2111	4.216365
1123.69	363	2075	4.217768
1128.19	358.5	2155	4.219170
1132.69	354	2191	4.220573
1137.19	349.5	2157	4.221976
1141.69	345	2221	4.223379
1146.19	340.5	2185	4.224782
1150.69	336	2274	4.226185
1155.19	331.5	2205	4.227588
1159.69	327	2294	4.228991
1164.19	322.5	2269	4.230394
1168.69	318	2390	4.231797
1173.19	313.5	2325	4.233200
1177.69	309	2357	4.234603
1182.19	304.5	2417	4.236006
1186.69	300	2394	4.237409
1191.19	295.5	2455	4.238812
1195.69	291	2567	4.240215
1200.19	286.5	3251	4.241618
1204.69	282	2457	4.243021
1209.19	277.5	2515	4.244424
1213.69	273	2457	4.245827
1218.19	268.5	2544	4.247230
1222.69	264	2522	4.248633
1227.19	259.5	2549	4.250036
1231.69	255	2459	4.251439
1236.19	250.5	2640	4.252819
1240.69	246	2686	4.253822
1245.19	241.5	2611	4.254825
1249.69	237	2645	4.255828
1254.19	232.5	2699	4.256831
1258.69	228	2772	4.257834
1263.19	223.5	2757	4.258836
1267.69	219	2800	4.259839
1272.19	214.5	2841	4.260842
1276.69	210	2895	4.261845
1281.19	205.5	2845	4.262848
1285.69	201	2936	4.263851
1290.19	196.5	2968	4.264854
1294.69	192	3013	4.265857
1299.19	187.5	2946	4.266859
1303.69	183	3113	4.267862
1308.19	178.5	3034	4.268865
1312.69	174	3098	4.269868
1317.19	169.5	3135	4.270871
1321.69	165	3202	4.271874
1326.19	160.5	3236	4.272877
1330.69	156	3190	4.268296
1335.19	151.5	3348	4.249035
1339.69	147	3397	4.229773
1344.19	142.5	3389	4.210512
1348.69	138	3445	4.191251
1353.19	133.5	3505	4.171990
1357.69	129	3509	4.152729
1362.19	124.5	4629	4.133468
1366.69	120	3589	4.114207
1371.19	115.5	3219	4.094945
1375.69	111	3400	4.075684
1380.19	106.5	3456	4.056423
1384.69	102	3633	4.037162
1389.19	97.5	3658	4.017901
1393.69	93	3878	3.998640
1398.19	88.5	4164	3.979379
1402.69	84	4504	3.960118
1407.19	79.5	4781	3.940856
1411.69	75	3534	3.921595
1416.19	70.5	2563	3.902334
1420.69	66	2050	3.883073
1425.19	61.5	1895	3.863812
1429.69	57	1946	3.844551
1434.19	52.5	2027	3.825290
1438.69	48	2124	3.806028
1443.19	43.5	2307	3.786767
1447.69	39	2368	3.767506
1452.19	34.5	2349	3.748245
1456.69	30	2153	3.728984
1461.19	25.5	2509	3.709723
1465.69	21	4066	3.703046
1470.19	16.5	2274	3.703046
1474.69	12	229	3.703046
1479.19	7.500000	829	3.703046
1483.69	3.000000	187	3.703046
1488.19	-1.500000	11	3.703046
1491.69	-5.000000	3.000000	3.703046

File: wide_pe160
Dataset wide:2(ito)
Dwell Time (s)	0.100000
Number of sweeps	3
Kinetic Energy(eV)	Binding Energy(eV)	Intensity(cps)	Transmission Value
286.69	1200	9943.33	5.684839
291.19	1195.5	9786.67	5.703692
295.69	1191	10120	5.722545
300.19	1186.5	9783.33	5.741397
304.69	1182	9676.67	5.760250
309.19	1177.5	9686.67	5.779103
313.69	1173	9606.67	5.797956
318.19	1168.5	9730	5.816809
322.69	1164	10173.3	5.835662
327.19	1159.5	10136.7	5.854515
331.69	1155	9976.67	5.880232
336.19	1150.5	10000	5.908046
340.69	1146	9763.33	5.935860
345.19	1141.5	9560	5.963674
349.69	1137	9233.33	5.991488
354.19	1132.5	8910	6.019302
358.69	1128	8860	6.047116
363.19	1123.5	8706.67	6.074930
367.69	1119	8913.33	6.102744
372.19	1114.5	8826.67	6.130558
376.69	1110	9193.33	6.158372
381.19	1105.5	9253.33	6.186186
385.69	1101	9256.67	6.214000
390.19	1096.5	9306.67	6.241814
394.69	1092	9886.67	6.269628
399.19	1087.5	12753.3	6.297442
403.69	1083	11446.7	6.325256
408.19	1078.5	10850	6.353070
412.69	1074	7706.67	6.380884
417.19	1069.5	7316.67	6.408698
421.69	1065	7653.33	6.436512
426.19	1060.5	7836.67	6.464326
430.69	1056	7253.33	6.492140
435.19	1051.5	7063.33	6.519954
439.69	1047	7130	6.547768
444.19	1042.5	7133.33	6.575582
448.69	1038	7203.33	6.603396
453.19	1033.5	7323.33	6.631210
457.69	1029	7363.33	6.658895
462.19	1024.5	7480	6.686359
466.69	1020	7740	6.713823
471.19	1015.5	7640	6.741287
475.69	1011	8013.33	6.768751
480.19	1006.5	7846.67	6.796215
484.69	1002	7946.67	6.823679
489.19	997.5	8450	6.851143
493.69	993	8670	6.878607
498.19	988.5	8206.67	6.906071
502.69	984	8156.67	6.933535
507.19	979.5	8570	6.960999
511.69	975	10406.7	6.988463
516.19	970.5	8733.33	7.015927
520.69	966	7960	7.043390
525.19	961.5	7600	7.070854
529.69	957	7410	7.098318
534.19	952.5	7763.33	7.125782
538.69	948	7473.33	7.153246
543.19	943.5	7513.33	7.180710
547.69	939	7940	7.208174
552.19	934.5	8053.33	7.235638
556.69	930	8050	7.263102
561.19	925.5	8036.67	7.290566
565.69	921	8106.67	7.318030
570.19	916.5	8460	7.345494
574.69	912	8426.67	7.372958
579.19	907.5	8550	7.400422
583.69	903	8546.67	7.427886
588.19	898.5	8713.33	7.455350
592.69	894	8716.67	7.482814
597.19	889.5	8756.67	7.510278
601.69	885	8900	7.537742
606.19	880.5	9000	7.565206
610.69	876	9343.33	7.592670
615.19	871.5	9406.67	7.620133
619.69	867	9320	7.647597
624.19	862.5	9290	7.675061
628.69	858	9500	7.702525
633.19	853.5	9473.33	7.729989
637.69	849	9740	7.757453
642.19	844.5	10103.3	7.784917
646.69	840	9973.33	7.812381
651.19	835.5	10016.7	7.839845
655.69	831	10833.3	7.867309
660.19	826.5	11176.7	7.894773
664.69	822	10293.3	7.922237
669.19	817.5	10256.7	7.941764
673.69	813	10040	7.960834
678.19	808.5	10146.7	7.979905
682.69	804	10393.3	7.998976
687.19	799.5	10346.7	8.018046
691.69	795	10560	8.037117
696.19	790.5	10346.7	8.056188
700.69	786	10753.3	8.075258
705.19	781.5	10750	8.094329
709.69	777	11006.7	8.113400
714.19	772.5	10816.7	8.132470
718.69	768	11163.3	8.151541
723.19	763.5	11330	8.170612
727.69	759	11816.7	8.189682
732.19	754.5	11390	8.208753
736.69	750	11663.3	8.227823
741.19	745.5	11730	8.246894
745.69	741	11776.7	8.265965
750.19	736.5	12080	8.285035
754.69	732	11856.7	8.304106
759.19	727.5	12336.7	8.323177
763.69	723	12723.3	8.342247
768.19	718.5	13470	8.361318
772.69	714	12810	8.380389
777.19	709.5	12793.3	8.399459
781.69	705	17443.3	8.418530
786.19	700.5	13403.3	8.437601
790.69	696	11986.7	8.456671
795.19	691.5	12383.3	8.475742
799.69	687	12243.3	8.494813
804.19	682.5	12813.3	8.513883
808.69	678	12330	8.532954
813.19	673.5	11880	8.552025
817.69	669	15456.7	8.571095
822.19	664.5	20590	8.590166
826.69	660	11506.7	8.609237
831.19	655.5	10583.3	8.628307
835.69	651	10570	8.647378
840.19	646.5	10666.7	8.666449
844.69	642	10513.3	8.685519
849.19	637.5	10723.3	8.704590
853.69	633	10473.3	8.723661
858.19	628.5	10670	8.742731
862.69	624	10963.3	8.761802
867.19	619.5	11223.3	8.780873
871.69	615	11403.3	8.799943
876.19	610.5	10956.7	8.819014
880.69	606	11333.3	8.838085
885.19	601.5	11150	8.857155
889.69	597	11850	8.871047
894.19	592.5	11690	8.882133
898.69	588	11756.7	8.893219
903.19	583.5	11990	8.904305
907.69	579	12486.7	8.915391
912.19	574.5	12326.7	8.926477
916.69	570	12940	8.937563
921.19	565.5	12803.3	8.948649
925.69	561	12753.3	8.959735
930.19	556.5	13090	8.970821
934.69	552	13510	8.981907
939.19	547.5	13653.3	8.992993
943.69	543	13023.3	9.004079
948.19	538.5	12520	9.015165
952.69	534	13030	9.026251
957.19	529.5	23576.7	9.037337
961.69	525	12283.3	9.048423
966.19	520.5	12143.3	9.059509
970.69	516	12263.3	9.070595
975.19	511.5	12420	9.081681
979.69	507	12736.7	9.092767
984.19	502.5	13140	9.103853
988.69	498	13220	9.114939
993.19	493.5	13803.3	9.126025
997.69	489	13850	9.137111
1002.19	484.5	12976.7	9.148197
1006.69	480	12740	9.159283
1011.19	475.5	13063.3	9.170369
1015.69	471	13953.3	9.181455
1020.19	466.5	13826.7	9.192541
1024.69	462	13476.7	9.203627
1029.19	457.5	11286.7	9.214713
1033.69	453	48323.3	9.225799
1038.19	448.5	8700	9.239781
1042.69	444	61136.7	9.254946
1047.19	439.5	3320	9.270111
1051.69	435	2280	9.285276
1056.19	430.5	2376.67	9.300441
1060.69	426	2056.67	9.315607
1065.19	421.5	2266.67	9.330772
1069.69	417	2223.33	9.345937
1074.19	412.5	2180	9.361102
1078.69	408	2326.67	9.376267
1083.19	403.5	2153.33	9.391432
1087.69	399	2410	9.406597
1092.19	394.5	2276.67	9.421762
1096.69	390	2196.67	9.436927
1101.19	385.5	2340	9.452092
1105.69	381	2323.33	9.467257
1110.19	376.5	2456.67	9.482422
1114.69	372	2546.67	9.497587
1119.19	367.5	2250	9.512752
1123.69	363	2450	9.527917
1128.19	358.5	2470	9.543082
1132.69	354	2413.33	9.558247
1137.19	349.5	2666.67	9.573412
1141.69	345	2503.33	9.588577
1146.19	340.5	2600	9.603742
1150.69	336	2553.33	9.618907
1155.19	331.5	2723.33	9.634072
1159.69	327	2693.33	9.649237
1164.19	322.5	2636.67	9.664402
1168.69	318	2756.67	9.679567
1173.19	313.5	2866.67	9.694732
1177.69	309	2940	9.709897
1182.19	304.5	2943.33	9.725062
1186.69	300	2913.33	9.740227
1191.19	295.5	2963.33	9.755392
1195.69	291	2976.67	9.770557
1200.19	286.5	3736.67	9.785722
1204.69	282	2960	9.800887
1209.19	277.5	2973.33	9.816052
1213.69	273	2986.67	9.831217
1218.19	268.5	3223.33	9.846382
1222.69	264	3030	9.861547
1227.19	259.5	3036.67	9.876712
1231.69	255	3273.33	9.891877
1236.19	250.5	3336.67	9.907320
1240.69	246	3216.67	9.927491
1245.19	241.5	3086.67	9.947662
1249.69	237	3350	9.967833
1254.19	232.5	3360	9.988004
1258.69	228	3353.33	10.0082
1263.19	223.5	3243.33	10.0283
1267.69	219	3506.67	10.0485
1272.19	214.5	3540	10.0687
1276.69	210	3383.33	10.0889
1281.19	205.5	3516.67	10.109
1285.69	201	3670	10.1292
1290.19	196.5	3606.67	10.1494
1294.69	192	3733.33	10.1695
1299.19	187.5	3973.33	10.1897
1303.69	183	3843.33	10.2099
1308.19	178.5	3770	10.2301
1312.69	174	3943.33	10.2502
1317.19	169.5	3953.33	10.2704
1321.69	165	3990	10.2906
1326.19	160.5	4100	10.3107
1330.69	156	4193.33	10.3312
1335.19	151.5	4173.33	10.3525
1339.69	147	4383.33	10.3738
1344.19	142.5	4416.67	10.3951
1348.69	138	4703.33	10.4164
1353.19	133.5	4523.33	10.4377
1357.69	129	4560	10.4589
1362.19	124.5	5983.33	10.4802
1366.69	120	4803.33	10.5015
1371.19	115.5	4410	10.5228
1375.69	111	4493.33	10.5441
1380.19	106.5	4693.33	10.5654
1384.69	102	4760	10.5867
1389.19	97.5	4753.33	10.608
1393.69	93	5050	10.6292
1398.19	88.5	5773.33	10.6505
1402.69	84	5940	10.6718
1407.19	79.5	6530	10.6931
1411.69	75	5146.67	10.7144
1416.19	70.5	3490	10.7357
1420.69	66	2723.33	10.757
1425.19	61.5	2626.67	10.7782
1429.69	57	2556.67	10.7995
1434.19	52.5	2470	10.8208
1438.69	48	2773.33	10.8421
1443.19	43.5	2906.67	10.8634
1447.69	39	2986.67	10.8847
1452.19	34.5	3063.33	10.906
1456.69	30	2640	10.9273
1461.19	25.5	3723.33	10.9485
1465.69	21	4253.33	10.9559
1470.19	16.5	8180	10.9559
1474.69	12	400	10.9559
1479.19	7.500000	976.667	10.9559
1483.69	3.000000	540	10.9559
1488.19	-1.500000	23.3333	10.9559
1491.69	-5.000000	0.000000	10.9559